#GR700XD order  2:                1.30000  7.782045e-05  1.941719e+04  2.680489e-15  1.511054e-03
#                              Wavelength    Response
                                  0.63523  3.006399e+03
                                  0.63568  2.636296e+03
                                  0.63613  2.615226e+03
                                  0.63659  2.594152e+03
                                  0.63704  2.573204e+03
                                  0.63749  2.552357e+03
                                  0.63795  2.531848e+03
                                  0.63840  2.511963e+03
                                  0.63886  2.492421e+03
                                  0.63931  2.473151e+03
                                  0.63976  2.454122e+03
                                  0.64022  2.435312e+03
                                  0.64067  2.416720e+03
                                  0.64112  2.398337e+03
                                  0.64158  2.380162e+03
                                  0.64203  2.362212e+03
                                  0.64248  2.344487e+03
                                  0.64294  2.326981e+03
                                  0.64339  2.309696e+03
                                  0.64384  2.292556e+03
                                  0.64430  2.275555e+03
                                  0.64475  2.258625e+03
                                  0.64521  2.241956e+03
                                  0.64566  2.225531e+03
                                  0.64611  2.209552e+03
                                  0.64657  2.194199e+03
                                  0.64702  2.179310e+03
                                  0.64747  2.164816e+03
                                  0.64793  2.150632e+03
                                  0.64838  2.136727e+03
                                  0.64883  2.123086e+03
                                  0.64929  2.109710e+03
                                  0.64974  2.096557e+03
                                  0.65019  2.083694e+03
                                  0.65065  2.071434e+03
                                  0.65110  2.059360e+03
                                  0.65156  2.047411e+03
                                  0.65201  2.035593e+03
                                  0.65246  2.024081e+03
                                  0.65292  2.012693e+03
                                  0.65337  2.001330e+03
                                  0.65382  1.990300e+03
                                  0.65428  1.979415e+03
                                  0.65473  1.968409e+03
                                  0.65518  1.957976e+03
                                  0.65564  1.947749e+03
                                  0.65609  1.936719e+03
                                  0.65654  1.926852e+03
                                  0.65700  1.916155e+03
                                  0.65745  1.906508e+03
                                  0.65791  1.896786e+03
                                  0.65836  1.886624e+03
                                  0.65881  1.876784e+03
                                  0.65927  1.866939e+03
                                  0.65972  1.856980e+03
                                  0.66017  1.847661e+03
                                  0.66063  1.838909e+03
                                  0.66108  1.830301e+03
                                  0.66153  1.821860e+03
                                  0.66199  1.813582e+03
                                  0.66244  1.805701e+03
                                  0.66289  1.797969e+03
                                  0.66335  1.790372e+03
                                  0.66380  1.782947e+03
                                  0.66426  1.775754e+03
                                  0.66471  1.768689e+03
                                  0.66516  1.761675e+03
                                  0.66562  1.754692e+03
                                  0.66607  1.747698e+03
                                  0.66652  1.740628e+03
                                  0.66698  1.733637e+03
                                  0.66743  1.726731e+03
                                  0.66788  1.719926e+03
                                  0.66834  1.713596e+03
                                  0.66879  1.707410e+03
                                  0.66924  1.701329e+03
                                  0.66970  1.695371e+03
                                  0.67015  1.689545e+03
                                  0.67061  1.683863e+03
                                  0.67106  1.678200e+03
                                  0.67151  1.672548e+03
                                  0.67197  1.666903e+03
                                  0.67242  1.661128e+03
                                  0.67287  1.655395e+03
                                  0.67333  1.649718e+03
                                  0.67378  1.644123e+03
                                  0.67423  1.638755e+03
                                  0.67469  1.633587e+03
                                  0.67514  1.628576e+03
                                  0.67559  1.623655e+03
                                  0.67605  1.618820e+03
                                  0.67650  1.614081e+03
                                  0.67696  1.609372e+03
                                  0.67741  1.604690e+03
                                  0.67786  1.600041e+03
                                  0.67832  1.595382e+03
                                  0.67877  1.590734e+03
                                  0.67922  1.586254e+03
                                  0.67968  1.581926e+03
                                  0.68013  1.577773e+03
                                  0.68058  1.574378e+03
                                  0.68104  1.570993e+03
                                  0.68149  1.567616e+03
                                  0.68194  1.564234e+03
                                  0.68240  1.560817e+03
                                  0.68285  1.557372e+03
                                  0.68331  1.553898e+03
                                  0.68376  1.550439e+03
                                  0.68421  1.546999e+03
                                  0.68467  1.543636e+03
                                  0.68512  1.540370e+03
                                  0.68557  1.537194e+03
                                  0.68603  1.534219e+03
                                  0.68648  1.531375e+03
                                  0.68693  1.528668e+03
                                  0.68739  1.526057e+03
                                  0.68784  1.523426e+03
                                  0.68829  1.520767e+03
                                  0.68875  1.518047e+03
                                  0.68920  1.515317e+03
                                  0.68966  1.512576e+03
                                  0.69011  1.510273e+03
                                  0.69056  1.508164e+03
                                  0.69102  1.506301e+03
                                  0.69147  1.504582e+03
                                  0.69192  1.502878e+03
                                  0.69238  1.501149e+03
                                  0.69283  1.499448e+03
                                  0.69328  1.497794e+03
                                  0.69374  1.496259e+03
                                  0.69419  1.494789e+03
                                  0.69464  1.493355e+03
                                  0.69510  1.491966e+03
                                  0.69555  1.490615e+03
                                  0.69601  1.489300e+03
                                  0.69646  1.488131e+03
                                  0.69691  1.486977e+03
                                  0.69737  1.485831e+03
                                  0.69782  1.484708e+03
                                  0.69827  1.483633e+03
                                  0.69873  1.482606e+03
                                  0.69918  1.481626e+03
                                  0.69963  1.480641e+03
                                  0.70009  1.479650e+03
                                  0.70054  1.478553e+03
                                  0.70099  1.477447e+03
                                  0.70145  1.476366e+03
                                  0.70190  1.475337e+03
                                  0.70236  1.474341e+03
                                  0.70281  1.473425e+03
                                  0.70326  1.472547e+03
                                  0.70372  1.471693e+03
                                  0.70417  1.470884e+03
                                  0.70462  1.470110e+03
                                  0.70508  1.469362e+03
                                  0.70553  1.468812e+03
                                  0.70598  1.468370e+03
                                  0.70644  1.468068e+03
                                  0.70689  1.467896e+03
                                  0.70734  1.467770e+03
                                  0.70780  1.467705e+03
                                  0.70825  1.467490e+03
                                  0.70871  1.467224e+03
                                  0.70916  1.466955e+03
                                  0.70961  1.466724e+03
                                  0.71007  1.466545e+03
                                  0.71052  1.466885e+03
                                  0.71097  1.467241e+03
                                  0.71143  1.467613e+03
                                  0.71188  1.467955e+03
                                  0.71233  1.468236e+03
                                  0.71279  1.468408e+03
                                  0.71324  1.468586e+03
                                  0.71369  1.468810e+03
                                  0.71415  1.469229e+03
                                  0.71460  1.469832e+03
                                  0.71506  1.470550e+03
                                  0.71551  1.471313e+03
                                  0.71596  1.471995e+03
                                  0.71642  1.472582e+03
                                  0.71687  1.473106e+03
                                  0.71732  1.473634e+03
                                  0.71778  1.474199e+03
                                  0.71823  1.475047e+03
                                  0.71868  1.476025e+03
                                  0.71914  1.477106e+03
                                  0.71959  1.478226e+03
                                  0.72004  1.479381e+03
                                  0.72050  1.480656e+03
                                  0.72095  1.481958e+03
                                  0.72141  1.483301e+03
                                  0.72186  1.484681e+03
                                  0.72231  1.486081e+03
                                  0.72277  1.487521e+03
                                  0.72322  1.489007e+03
                                  0.72367  1.490526e+03
                                  0.72413  1.492098e+03
                                  0.72458  1.493696e+03
                                  0.72503  1.495337e+03
                                  0.72549  1.497070e+03
                                  0.72594  1.498832e+03
                                  0.72639  1.500602e+03
                                  0.72685  1.502400e+03
                                  0.72730  1.504220e+03
                                  0.72776  1.506106e+03
                                  0.72821  1.508038e+03
                                  0.72866  1.510051e+03
                                  0.72912  1.512149e+03
                                  0.72957  1.514288e+03
                                  0.73002  1.516487e+03
                                  0.73048  1.518705e+03
                                  0.73093  1.520942e+03
                                  0.73138  1.523270e+03
                                  0.73184  1.525616e+03
                                  0.73229  1.527982e+03
                                  0.73274  1.530386e+03
                                  0.73320  1.532816e+03
                                  0.73365  1.535368e+03
                                  0.73411  1.537958e+03
                                  0.73456  1.540597e+03
                                  0.73501  1.543268e+03
                                  0.73547  1.545957e+03
                                  0.73592  1.548680e+03
                                  0.73637  1.551449e+03
                                  0.73683  1.554258e+03
                                  0.73728  1.557101e+03
                                  0.73773  1.559966e+03
                                  0.73819  1.562868e+03
                                  0.73864  1.565813e+03
                                  0.73909  1.568788e+03
                                  0.73955  1.571871e+03
                                  0.74000  1.575012e+03
                                  0.74046  1.578234e+03
                                  0.74091  1.581499e+03
                                  0.74136  1.584786e+03
                                  0.74182  1.588091e+03
                                  0.74227  1.591447e+03
                                  0.74272  1.594855e+03
                                  0.74318  1.598296e+03
                                  0.74363  1.601764e+03
                                  0.74408  1.605283e+03
                                  0.74454  1.608852e+03
                                  0.74499  1.612464e+03
                                  0.74544  1.616148e+03
                                  0.74590  1.619840e+03
                                  0.74635  1.623514e+03
                                  0.74681  1.627233e+03
                                  0.74726  1.630984e+03
                                  0.74771  1.634866e+03
                                  0.74817  1.638755e+03
                                  0.74862  1.642638e+03
                                  0.74907  1.646547e+03
                                  0.74953  1.650478e+03
                                  0.74998  1.654546e+03
                                  0.75043  1.658708e+03
                                  0.75089  1.663022e+03
                                  0.75134  1.667375e+03
                                  0.75179  1.671760e+03
                                  0.75225  1.676193e+03
                                  0.75270  1.680655e+03
                                  0.75316  1.685152e+03
                                  0.75361  1.689684e+03
                                  0.75406  1.694250e+03
                                  0.75452  1.698925e+03
                                  0.75497  1.703634e+03
                                  0.75542  1.708386e+03
                                  0.75588  1.713162e+03
                                  0.75633  1.717963e+03
                                  0.75678  1.722782e+03
                                  0.75724  1.727671e+03
                                  0.75769  1.732654e+03
                                  0.75814  1.737827e+03
                                  0.75860  1.743104e+03
                                  0.75905  1.748558e+03
                                  0.75951  1.754063e+03
                                  0.75996  1.759632e+03
                                  0.76041  1.765023e+03
                                  0.76087  1.770347e+03
                                  0.76132  1.775616e+03
                                  0.76177  1.780924e+03
                                  0.76223  1.786279e+03
                                  0.76268  1.791706e+03
                                  0.76313  1.797189e+03
                                  0.76359  1.802784e+03
                                  0.76404  1.808402e+03
                                  0.76449  1.814003e+03
                                  0.76495  1.819649e+03
                                  0.76540  1.825340e+03
                                  0.76586  1.831124e+03
                                  0.76631  1.836975e+03
                                  0.76676  1.842958e+03
                                  0.76722  1.848939e+03
                                  0.76767  1.854918e+03
                                  0.76812  1.860990e+03
                                  0.76858  1.867119e+03
                                  0.76903  1.873299e+03
                                  0.76948  1.879479e+03
                                  0.76994  1.885638e+03
                                  0.77039  1.891336e+03
                                  0.77084  1.896858e+03
                                  0.77130  1.902374e+03
                                  0.77175  1.908008e+03
                                  0.77221  1.913868e+03
                                  0.77266  1.919947e+03
                                  0.77311  1.926194e+03
                                  0.77357  1.932573e+03
                                  0.77402  1.938984e+03
                                  0.77447  1.945342e+03
                                  0.77493  1.951756e+03
                                  0.77538  1.958232e+03
                                  0.77583  1.964746e+03
                                  0.77629  1.971308e+03
                                  0.77674  1.977859e+03
                                  0.77719  1.984538e+03
                                  0.77765  1.991361e+03
                                  0.77810  1.998220e+03
                                  0.77856  2.005064e+03
                                  0.77901  2.011905e+03
                                  0.77946  2.018773e+03
                                  0.77992  2.025711e+03
                                  0.78037  2.032824e+03
                                  0.78082  2.040149e+03
                                  0.78128  2.047402e+03
                                  0.78173  2.054656e+03
                                  0.78218  2.062022e+03
                                  0.78264  2.069440e+03
                                  0.78309  2.076908e+03
                                  0.78354  2.084358e+03
                                  0.78400  2.091799e+03
                                  0.78445  2.098883e+03
                                  0.78491  2.105924e+03
                                  0.78536  2.113104e+03
                                  0.78581  2.120429e+03
                                  0.78627  2.127995e+03
                                  0.78672  2.135753e+03
                                  0.78717  2.143660e+03
                                  0.78763  2.151666e+03
                                  0.78808  2.159743e+03
                                  0.78853  2.167859e+03
                                  0.78899  2.176011e+03
                                  0.78944  2.184187e+03
                                  0.78989  2.192221e+03
                                  0.79035  2.200195e+03
                                  0.79080  2.208002e+03
                                  0.79126  2.215844e+03
                                  0.79171  2.223871e+03
                                  0.79216  2.232083e+03
                                  0.79262  2.240554e+03
                                  0.79307  2.249119e+03
                                  0.79352  2.257774e+03
                                  0.79398  2.266200e+03
                                  0.79443  2.274607e+03
                                  0.79488  2.282743e+03
                                  0.79534  2.290971e+03
                                  0.79579  2.299301e+03
                                  0.79624  2.308017e+03
                                  0.79670  2.316994e+03
                                  0.79715  2.326023e+03
                                  0.79761  2.335095e+03
                                  0.79806  2.343962e+03
                                  0.79851  2.352782e+03
                                  0.79897  2.361424e+03
                                  0.79942  2.370108e+03
                                  0.79987  2.378825e+03
                                  0.80033  2.388127e+03
                                  0.80078  2.397606e+03
                                  0.80123  2.407150e+03
                                  0.80169  2.416690e+03
                                  0.80214  2.426088e+03
                                  0.80259  2.435390e+03
                                  0.80305  2.444595e+03
                                  0.80350  2.453860e+03
                                  0.80396  2.463193e+03
                                  0.80441  2.473081e+03
                                  0.80486  2.483075e+03
                                  0.80532  2.493134e+03
                                  0.80577  2.503162e+03
                                  0.80622  2.513101e+03
                                  0.80668  2.522901e+03
                                  0.80713  2.532644e+03
                                  0.80758  2.542290e+03
                                  0.80804  2.551984e+03
                                  0.80849  2.561772e+03
                                  0.80894  2.571657e+03
                                  0.80940  2.581673e+03
                                  0.80985  2.591947e+03
                                  0.81031  2.602499e+03
                                  0.81076  2.613325e+03
                                  0.81121  2.624330e+03
                                  0.81167  2.635336e+03
                                  0.81212  2.646359e+03
                                  0.81257  2.656882e+03
                                  0.81303  2.667445e+03
                                  0.81348  2.677992e+03
                                  0.81393  2.688600e+03
                                  0.81439  2.699272e+03
                                  0.81484  2.710033e+03
                                  0.81529  2.720884e+03
                                  0.81575  2.731824e+03
                                  0.81620  2.742853e+03
                                  0.81666  2.753903e+03
                                  0.81711  2.765004e+03
                                  0.81756  2.776108e+03
                                  0.81802  2.787270e+03
                                  0.81847  2.798496e+03
                                  0.81892  2.809758e+03
                                  0.81938  2.821092e+03
                                  0.81983  2.832646e+03
                                  0.82028  2.844349e+03
                                  0.82074  2.856566e+03
                                  0.82119  2.868855e+03
                                  0.82164  2.881151e+03
                                  0.82210  2.893264e+03
                                  0.82255  2.905103e+03
                                  0.82301  2.916814e+03
                                  0.82346  2.928487e+03
                                  0.82391  2.940268e+03
                                  0.82437  2.952147e+03
                                  0.82482  2.964221e+03
                                  0.82527  2.976356e+03
                                  0.82573  2.988360e+03
                                  0.82618  3.000424e+03
                                  0.82663  3.012535e+03
                                  0.82709  3.024763e+03
                                  0.82754  3.037112e+03
                                  0.82799  3.049428e+03
                                  0.82845  3.061789e+03
                                  0.82890  3.074152e+03
                                  0.82936  3.086606e+03
                                  0.82981  3.099184e+03
                                  0.83026  3.111867e+03
                                  0.83072  3.124669e+03
                                  0.83117  3.137586e+03
                                  0.83162  3.150632e+03
                                  0.83208  3.163664e+03
                                  0.83253  3.176701e+03
                                  0.83298  3.189793e+03
                                  0.83344  3.202994e+03
                                  0.83389  3.216269e+03
                                  0.83434  3.229634e+03
                                  0.83480  3.243033e+03
                                  0.83525  3.256511e+03
                                  0.83571  3.270025e+03
                                  0.83616  3.283947e+03
                                  0.83661  3.298626e+03
                                  0.83707  3.313203e+03
                                  0.83752  3.327641e+03
                                  0.83797  3.341544e+03
                                  0.83843  3.355163e+03
                                  0.83888  3.368354e+03
                                  0.83933  3.381488e+03
                                  0.83979  3.394755e+03
                                  0.84024  3.408171e+03
                                  0.84069  3.422275e+03
                                  0.84115  3.436490e+03
                                  0.84160  3.450702e+03
                                  0.84206  3.464953e+03
                                  0.84251  3.479162e+03
                                  0.84296  3.493396e+03
                                  0.84342  3.507697e+03
                                  0.84387  3.522036e+03
                                  0.84432  3.536474e+03
                                  0.84478  3.550965e+03
                                  0.84523  3.565501e+03
                                  0.84568  3.580003e+03
                                  0.84614  3.594619e+03
                                  0.84659  3.608994e+03
                                  0.84704  3.623556e+03
                                  0.84750  3.638077e+03
                                  0.84795  3.652642e+03
                                  0.84841  3.667378e+03
                                  0.84886  3.681994e+03
                                  0.84931  3.696645e+03
                                  0.84977  3.711069e+03
                                  0.85022  3.725315e+03
                                  0.85067  3.739388e+03
                                  0.85113  3.753147e+03
                                  0.85158  3.767130e+03
                                  0.85203  3.781023e+03
                                  0.85249  3.795621e+03
                                  0.85294  3.810438e+03
                                  0.85339  3.825348e+03
                                  0.85385  3.840719e+03
                                  0.85430  3.855482e+03
                                  0.85476  3.870770e+03
                                  0.85521  3.885829e+03
                                  0.85566  3.900931e+03
                                  0.85612  3.916166e+03
                                  0.85657  3.931251e+03
                                  0.85702  3.946510e+03
                                  0.85748  3.961579e+03
                                  0.85793  3.976770e+03
                                  0.85838  3.992065e+03
                                  0.85884  4.007979e+03
                                  0.85929  4.023297e+03
                                  0.85974  4.039115e+03
                                  0.86020  4.054325e+03
                                  0.86065  4.069252e+03
                                  0.86111  4.084699e+03
                                  0.86156  4.099512e+03
                                  0.86201  4.115419e+03
                                  0.86247  4.131080e+03
                                  0.86292  4.147556e+03
                                  0.86337  4.164033e+03
                                  0.86383  4.180801e+03
                                  0.86428  4.197437e+03
                                  0.86473  4.213923e+03
                                  0.86519  4.230597e+03
                                  0.86564  4.247792e+03
                                  0.86609  4.265187e+03
                                  0.86655  4.282587e+03
                                  0.86700  4.300484e+03
                                  0.86746  4.317576e+03
                                  0.86791  4.334774e+03
                                  0.86836  4.351237e+03
                                  0.86882  4.367861e+03
                                  0.86927  4.384191e+03
                                  0.86972  4.401162e+03
                                  0.87018  4.418103e+03
                                  0.87063  4.435979e+03
                                  0.87108  4.453953e+03
                                  0.87154  4.471825e+03
                                  0.87199  4.489923e+03
                                  0.87244  4.508161e+03
                                  0.87290  4.526710e+03
                                  0.87335  4.544743e+03
                                  0.87381  4.563367e+03
                                  0.87426  4.581577e+03
                                  0.87471  4.600790e+03
                                  0.87517  4.619199e+03
                                  0.87562  4.638330e+03
                                  0.87607  4.656619e+03
                                  0.87653  4.674692e+03
                                  0.87698  4.692644e+03
                                  0.87743  4.710332e+03
                                  0.87789  4.728161e+03
                                  0.87834  4.746572e+03
                                  0.87879  4.765576e+03
                                  0.87925  4.784669e+03
                                  0.87970  4.803902e+03
                                  0.88016  4.822820e+03
                                  0.88061  4.841687e+03
                                  0.88106  4.860596e+03
                                  0.88152  4.879647e+03
                                  0.88197  4.898056e+03
                                  0.88242  4.916531e+03
                                  0.88288  4.934203e+03
                                  0.88333  4.952117e+03
                                  0.88378  4.969937e+03
                                  0.88424  4.988480e+03
                                  0.88469  5.007211e+03
                                  0.88514  5.027368e+03
                                  0.88560  5.045979e+03
                                  0.88605  5.066353e+03
                                  0.88651  5.086513e+03
                                  0.88696  5.106953e+03
                                  0.88741  5.126742e+03
                                  0.88787  5.144933e+03
                                  0.88832  5.160896e+03
                                  0.88877  5.176028e+03
                                  0.88923  5.191018e+03
                                  0.88968  5.206169e+03
                                  0.89013  5.223778e+03
                                  0.89059  5.241814e+03
                                  0.89104  5.262171e+03
                                  0.89149  5.282554e+03
                                  0.89195  5.303175e+03
                                  0.89240  5.323468e+03
                                  0.89286  5.342823e+03
                                  0.89331  5.362206e+03
                                  0.89376  5.381561e+03
                                  0.89422  5.401417e+03
                                  0.89467  5.422255e+03
                                  0.89512  5.443198e+03
                                  0.89558  5.464255e+03
                                  0.89603  5.485433e+03
                                  0.89648  5.506687e+03
                                  0.89694  5.527940e+03
                                  0.89739  5.549097e+03
                                  0.89784  5.570010e+03
                                  0.89830  5.590497e+03
                                  0.89875  5.610887e+03
                                  0.89921  5.631157e+03
                                  0.89966  5.651750e+03
                                  0.90011  5.672929e+03
                                  0.90057  5.694704e+03
                                  0.90102  5.717074e+03
                                  0.90147  5.740304e+03
                                  0.90193  5.762664e+03
                                  0.90238  5.785301e+03
                                  0.90283  5.806733e+03
                                  0.90329  5.828184e+03
                                  0.90374  5.849919e+03
                                  0.90419  5.872097e+03
                                  0.90465  5.895292e+03
                                  0.90510  5.918480e+03
                                  0.90556  5.942059e+03
                                  0.90601  5.964987e+03
                                  0.90646  5.987368e+03
                                  0.90692  6.009743e+03
                                  0.90737  6.032115e+03
                                  0.90782  6.054853e+03
                                  0.90828  6.078115e+03
                                  0.90873  6.101701e+03
                                  0.90918  6.125676e+03
                                  0.90964  6.149831e+03
                                  0.91009  6.174091e+03
                                  0.91054  6.198422e+03
                                  0.91100  6.222844e+03
                                  0.91145  6.247334e+03
                                  0.91191  6.271901e+03
                                  0.91236  6.296701e+03
                                  0.91281  6.321747e+03
                                  0.91327  6.346631e+03
                                  0.91372  6.371246e+03
                                  0.91417  6.395650e+03
                                  0.91463  6.419634e+03
                                  0.91508  6.443606e+03
                                  0.91553  6.467428e+03
                                  0.91599  6.491708e+03
                                  0.91644  6.516651e+03
                                  0.91689  6.541907e+03
                                  0.91735  6.567571e+03
                                  0.91780  6.593165e+03
                                  0.91826  6.618101e+03
                                  0.91871  6.643073e+03
                                  0.91916  6.667451e+03
                                  0.91962  6.692195e+03
                                  0.92007  6.717102e+03
                                  0.92052  6.742669e+03
                                  0.92098  6.768509e+03
                                  0.92143  6.795519e+03
                                  0.92188  6.822136e+03
                                  0.92234  6.850940e+03
                                  0.92279  6.878832e+03
                                  0.92324  6.908368e+03
                                  0.92370  6.936965e+03
                                  0.92415  6.964186e+03
                                  0.92461  6.990769e+03
                                  0.92506  7.015574e+03
                                  0.92551  7.042001e+03
                                  0.92597  7.067507e+03
                                  0.92642  7.095091e+03
                                  0.92687  7.122267e+03
                                  0.92733  7.150408e+03
                                  0.92778  7.178264e+03
                                  0.92823  7.206260e+03
                                  0.92869  7.234217e+03
                                  0.92914  7.262551e+03
                                  0.92959  7.291067e+03
                                  0.93005  7.319898e+03
                                  0.93050  7.348940e+03
                                  0.93096  7.378051e+03
                                  0.93141  7.407302e+03
                                  0.93186  7.435855e+03
                                  0.93232  7.464160e+03
                                  0.93277  7.492153e+03
                                  0.93322  7.519995e+03
                                  0.93368  7.548382e+03
                                  0.93413  7.577281e+03
                                  0.93458  7.606687e+03
                                  0.93504  7.636641e+03
                                  0.93549  7.666846e+03
                                  0.93594  7.697314e+03
                                  0.93640  7.728029e+03
                                  0.93685  7.758998e+03
                                  0.93731  7.790055e+03
                                  0.93776  7.820926e+03
                                  0.93821  7.852054e+03
                                  0.93867  7.883363e+03
                                  0.93912  7.914880e+03
                                  0.93957  7.945916e+03
                                  0.94003  7.977184e+03
                                  0.94048  8.006812e+03
                                  0.94093  8.036757e+03
                                  0.94139  8.066647e+03
                                  0.94184  8.096697e+03
                                  0.94229  8.128318e+03
                                  0.94275  8.160270e+03
                                  0.94320  8.192650e+03
                                  0.94366  8.225348e+03
                                  0.94411  8.256851e+03
                                  0.94456  8.288088e+03
                                  0.94502  8.319278e+03
                                  0.94547  8.350575e+03
                                  0.94592  8.382386e+03
                                  0.94638  8.414693e+03
                                  0.94683  8.447575e+03
                                  0.94728  8.481093e+03
                                  0.94774  8.514938e+03
                                  0.94819  8.549122e+03
                                  0.94864  8.583499e+03
                                  0.94910  8.617748e+03
                                  0.94955  8.652503e+03
                                  0.95001  8.687856e+03
                                  0.95046  8.723896e+03
                                  0.95091  8.760828e+03
                                  0.95137  8.798785e+03
                                  0.95182  8.835899e+03
                                  0.95227  8.874584e+03
                                  0.95273  8.911536e+03
                                  0.95318  8.950616e+03
                                  0.95363  8.987041e+03
                                  0.95409  9.025198e+03
                                  0.95454  9.062760e+03
                                  0.95499  9.099606e+03
                                  0.95545  9.137993e+03
                                  0.95590  9.174964e+03
                                  0.95636  9.213032e+03
                                  0.95681  9.252800e+03
                                  0.95726  9.291661e+03
                                  0.95772  9.331748e+03
                                  0.95817  9.371311e+03
                                  0.95862  9.412445e+03
                                  0.95908  9.453111e+03
                                  0.95953  9.493634e+03
                                  0.95998  9.534102e+03
                                  0.96044  9.575500e+03
                                  0.96089  9.617052e+03
                                  0.96134  9.657673e+03
                                  0.96180  9.698368e+03
                                  0.96225  9.738367e+03
                                  0.96271  9.778305e+03
                                  0.96316  9.818048e+03
                                  0.96361  9.857715e+03
                                  0.96407  9.898345e+03
                                  0.96452  9.940046e+03
                                  0.96497  9.982217e+03
                                  0.96543  1.002510e+04
                                  0.96588  1.006829e+04
                                  0.96633  1.011135e+04
                                  0.96679  1.015473e+04
                                  0.96724  1.019844e+04
                                  0.96769  1.024244e+04
                                  0.96815  1.028621e+04
                                  0.96860  1.033032e+04
                                  0.96906  1.037431e+04
                                  0.96951  1.041856e+04
                                  0.96996  1.046326e+04
                                  0.97042  1.050839e+04
                                  0.97087  1.055359e+04
                                  0.97132  1.059892e+04
                                  0.97178  1.064451e+04
                                  0.97223  1.069029e+04
                                  0.97268  1.073635e+04
                                  0.97314  1.078238e+04
                                  0.97359  1.082879e+04
                                  0.97404  1.087513e+04
                                  0.97450  1.092189e+04
                                  0.97495  1.096884e+04
                                  0.97541  1.101619e+04
                                  0.97586  1.106256e+04
                                  0.97631  1.110895e+04
                                  0.97677  1.115439e+04
                                  0.97722  1.119941e+04
                                  0.97767  1.124521e+04
                                  0.97813  1.129187e+04
                                  0.97858  1.133938e+04
                                  0.97903  1.138835e+04
                                  0.97949  1.143770e+04
                                  0.97994  1.148707e+04
                                  0.98039  1.153691e+04
                                  0.98085  1.158690e+04
                                  0.98130  1.163736e+04
                                  0.98176  1.168780e+04
                                  0.98221  1.173861e+04
                                  0.98266  1.178953e+04
                                  0.98312  1.184072e+04
                                  0.98357  1.189225e+04
                                  0.98402  1.194411e+04
                                  0.98448  1.199624e+04
                                  0.98493  1.204833e+04
                                  0.98538  1.210092e+04
                                  0.98584  1.215371e+04
                                  0.98629  1.220702e+04
                                  0.98674  1.226063e+04
                                  0.98720  1.231468e+04
                                  0.98765  1.236741e+04
                                  0.98811  1.242009e+04
                                  0.98856  1.247186e+04
                                  0.98901  1.252314e+04
                                  0.98947  1.257510e+04
                                  0.98992  1.262772e+04
                                  0.99037  1.268110e+04
                                  0.99083  1.273617e+04
                                  0.99128  1.279172e+04
                                  0.99173  1.284817e+04
                                  0.99219  1.290519e+04
                                  0.99264  1.296160e+04
                                  0.99309  1.301836e+04
                                  0.99355  1.307536e+04
                                  0.99400  1.313273e+04
                                  0.99446  1.319061e+04
                                  0.99491  1.324899e+04
                                  0.99536  1.330757e+04
                                  0.99582  1.336559e+04
                                  0.99627  1.342423e+04
                                  0.99672  1.348336e+04
                                  0.99718  1.354317e+04
                                  0.99763  1.360282e+04
                                  0.99808  1.366307e+04
                                  0.99854  1.372333e+04
                                  0.99899  1.378404e+04
                                  0.99944  1.384471e+04
                                  0.99990  1.390518e+04
                                  1.00035  1.396663e+04
                                  1.00081  1.402899e+04
                                  1.00126  1.409278e+04
                                  1.00171  1.415608e+04
                                  1.00217  1.422160e+04
                                  1.00262  1.428688e+04
                                  1.00307  1.435515e+04
                                  1.00353  1.442231e+04
                                  1.00398  1.449111e+04
                                  1.00443  1.456215e+04
                                  1.00489  1.463068e+04
                                  1.00534  1.470307e+04
                                  1.00579  1.477453e+04
                                  1.00625  1.484281e+04
                                  1.00670  1.491654e+04
                                  1.00716  1.498639e+04
                                  1.00761  1.505793e+04
                                  1.00806  1.512934e+04
                                  1.00852  1.520079e+04
                                  1.00897  1.527356e+04
                                  1.00942  1.534593e+04
                                  1.00988  1.541920e+04
                                  1.01033  1.549234e+04
                                  1.01078  1.556731e+04
                                  1.01124  1.564259e+04
                                  1.01169  1.571623e+04
                                  1.01214  1.578979e+04
                                  1.01260  1.586235e+04
                                  1.01305  1.593411e+04
                                  1.01351  1.600669e+04
                                  1.01396  1.608067e+04
                                  1.01441  1.615526e+04
                                  1.01487  1.623237e+04
                                  1.01532  1.631013e+04
                                  1.01577  1.638803e+04
                                  1.01623  1.646654e+04
                                  1.01668  1.654561e+04
                                  1.01713  1.662532e+04
                                  1.01759  1.670532e+04
                                  1.01804  1.678517e+04
                                  1.01849  1.686575e+04
                                  1.01895  1.694642e+04
                                  1.01940  1.702789e+04
                                  1.01986  1.710942e+04
                                  1.02031  1.719162e+04
                                  1.02076  1.727414e+04
                                  1.02122  1.735714e+04
                                  1.02167  1.744070e+04
                                  1.02212  1.752456e+04
                                  1.02258  1.760921e+04
                                  1.02303  1.769374e+04
                                  1.02348  1.777912e+04
                                  1.02394  1.786432e+04
                                  1.02439  1.795015e+04
                                  1.02484  1.803621e+04
                                  1.02530  1.812262e+04
                                  1.02575  1.820965e+04
                                  1.02621  1.829688e+04
                                  1.02666  1.838499e+04
                                  1.02711  1.847297e+04
                                  1.02757  1.856186e+04
                                  1.02802  1.865171e+04
                                  1.02847  1.874250e+04
                                  1.02893  1.883351e+04
                                  1.02938  1.892468e+04
                                  1.02983  1.901582e+04
                                  1.03029  1.910405e+04
                                  1.03074  1.919317e+04
                                  1.03119  1.928294e+04
                                  1.03165  1.937362e+04
                                  1.03210  1.946520e+04
                                  1.03256  1.955774e+04
                                  1.03301  1.965188e+04
                                  1.03346  1.974804e+04
                                  1.03392  1.984505e+04
                                  1.03437  1.994134e+04
                                  1.03482  2.003860e+04
                                  1.03528  2.013648e+04
                                  1.03573  2.023531e+04
                                  1.03618  2.033459e+04
                                  1.03664  2.043436e+04
                                  1.03709  2.053484e+04
                                  1.03754  2.063501e+04
                                  1.03800  2.073623e+04
                                  1.03845  2.083722e+04
                                  1.03891  2.093917e+04
                                  1.03936  2.104110e+04
                                  1.03981  2.114349e+04
                                  1.04027  2.124733e+04
                                  1.04072  2.135301e+04
                                  1.04117  2.145968e+04
                                  1.04163  2.156400e+04
                                  1.04208  2.166940e+04
                                  1.04253  2.177550e+04
                                  1.04299  2.188261e+04
                                  1.04344  2.199093e+04
                                  1.04389  2.210052e+04
                                  1.04435  2.221091e+04
                                  1.04480  2.231954e+04
                                  1.04526  2.242951e+04
                                  1.04571  2.253743e+04
                                  1.04616  2.264582e+04
                                  1.04662  2.275367e+04
                                  1.04707  2.286085e+04
                                  1.04752  2.296921e+04
                                  1.04798  2.307958e+04
                                  1.04843  2.319100e+04
                                  1.04888  2.330600e+04
                                  1.04934  2.342258e+04
                                  1.04979  2.354227e+04
                                  1.05024  2.366474e+04
                                  1.05070  2.378934e+04
                                  1.05115  2.391745e+04
                                  1.05161  2.404706e+04
                                  1.05206  2.417691e+04
                                  1.05251  2.430813e+04
                                  1.05297  2.443953e+04
                                  1.05342  2.457155e+04
                                  1.05387  2.470469e+04
                                  1.05433  2.483828e+04
                                  1.05478  2.497345e+04
                                  1.05523  2.510870e+04
                                  1.05569  2.524539e+04
                                  1.05614  2.538124e+04
                                  1.05659  2.551712e+04
                                  1.05705  2.565497e+04
                                  1.05750  2.579559e+04
                                  1.05796  2.593794e+04
                                  1.05841  2.607916e+04
                                  1.05886  2.622194e+04
                                  1.05932  2.636472e+04
                                  1.05977  2.650799e+04
                                  1.06022  2.665034e+04
                                  1.06068  2.678717e+04
                                  1.06113  2.692546e+04
                                  1.06158  2.706621e+04
                                  1.06204  2.720861e+04
                                  1.06249  2.735480e+04
                                  1.06294  2.750434e+04
                                  1.06340  2.765529e+04
                                  1.06385  2.780659e+04
                                  1.06431  2.795966e+04
                                  1.06476  2.811278e+04
                                  1.06521  2.826748e+04
                                  1.06567  2.842225e+04
                                  1.06612  2.857734e+04
                                  1.06657  2.873402e+04
                                  1.06703  2.889106e+04
                                  1.06748  2.905062e+04
                                  1.06793  2.920437e+04
                                  1.06839  2.935906e+04
                                  1.06884  2.951511e+04
                                  1.06929  2.967122e+04
                                  1.06975  2.982953e+04
                                  1.07020  2.999543e+04
                                  1.07066  3.016244e+04
                                  1.07111  3.033398e+04
                                  1.07156  3.050847e+04
                                  1.07202  3.068184e+04
                                  1.07247  3.085209e+04
                                  1.07292  3.102447e+04
                                  1.07338  3.119347e+04
                                  1.07383  3.136430e+04
                                  1.07428  3.153564e+04
                                  1.07474  3.170804e+04
                                  1.07519  3.188172e+04
                                  1.07564  3.205535e+04
                                  1.07610  3.223094e+04
                                  1.07655  3.240765e+04
                                  1.07701  3.258616e+04
                                  1.07746  3.276511e+04
                                  1.07791  3.294460e+04
                                  1.07837  3.312513e+04
                                  1.07882  3.329890e+04
                                  1.07927  3.347474e+04
                                  1.07973  3.365347e+04
                                  1.08018  3.383468e+04
                                  1.08063  3.401893e+04
                                  1.08109  3.420709e+04
                                  1.08154  3.439776e+04
                                  1.08199  3.458698e+04
                                  1.08245  3.477851e+04
                                  1.08290  3.497050e+04
                                  1.08336  3.516328e+04
                                  1.08381  3.535702e+04
                                  1.08426  3.554624e+04
                                  1.08472  3.573780e+04
                                  1.08517  3.592583e+04
                                  1.08562  3.611475e+04
                                  1.08608  3.630869e+04
                                  1.08653  3.650958e+04
                                  1.08698  3.671382e+04
                                  1.08744  3.691590e+04
                                  1.08789  3.712129e+04
                                  1.08834  3.732722e+04
                                  1.08880  3.753502e+04
                                  1.08925  3.774557e+04
                                  1.08971  3.795387e+04
                                  1.09016  3.816809e+04
                                  1.09061  3.837003e+04
                                  1.09107  3.857422e+04
                                  1.09152  3.878129e+04
                                  1.09197  3.898915e+04
                                  1.09243  3.921076e+04
                                  1.09288  3.942255e+04
                                  1.09333  3.964946e+04
                                  1.09379  3.987947e+04
                                  1.09424  4.010218e+04
                                  1.09469  4.032991e+04
                                  1.09515  4.056827e+04
                                  1.09560  4.079408e+04
                                  1.09606  4.103577e+04
                                  1.09651  4.127924e+04
                                  1.09696  4.151705e+04
                                  1.09742  4.175971e+04
                                  1.09787  4.199836e+04
                                  1.09832  4.223337e+04
                                  1.09878  4.246719e+04
                                  1.09923  4.270284e+04
                                  1.09968  4.294257e+04
                                  1.10014  4.318294e+04
                                  1.10059  4.344845e+04
                                  1.10104  4.371633e+04
                                  1.10150  4.398942e+04
                                  1.10195  4.426763e+04
                                  1.10241  4.454696e+04
                                  1.10286  4.481666e+04
                                  1.10331  4.508910e+04
                                  1.10377  4.536443e+04
                                  1.10422  4.564290e+04
                                  1.10467  4.592590e+04
                                  1.10513  4.621634e+04
                                  1.10558  4.651038e+04
                                  1.10603  4.680763e+04
                                  1.10649  4.710861e+04
                                  1.10694  4.741040e+04
                                  1.10739  4.771063e+04
                                  1.10785  4.801480e+04
                                  1.10830  4.832252e+04
                                  1.10876  4.863433e+04
                                  1.10921  4.894491e+04
                                  1.10966  4.925341e+04
                                  1.11012  4.956602e+04
                                  1.11057  4.988235e+04
                                  1.11102  5.020294e+04
                                  1.11148  5.052455e+04
                                  1.11193  5.084798e+04
                                  1.11238  5.117569e+04
                                  1.11284  5.150597e+04
                                  1.11329  5.184079e+04
                                  1.11374  5.216750e+04
                                  1.11420  5.249157e+04
                                  1.11465  5.281848e+04
                                  1.11511  5.314344e+04
                                  1.11556  5.347264e+04
                                  1.11601  5.381320e+04
                                  1.11647  5.416107e+04
                                  1.11692  5.451109e+04
                                  1.11737  5.485841e+04
                                  1.11783  5.521055e+04
                                  1.11828  5.556758e+04
                                  1.11873  5.592964e+04
                                  1.11919  5.629524e+04
                                  1.11964  5.666246e+04
                                  1.12009  5.703476e+04
                                  1.12055  5.740204e+04
                                  1.12100  5.777246e+04
                                  1.12146  5.814616e+04
                                  1.12191  5.852197e+04
                                  1.12236  5.890298e+04
                                  1.12282  5.927407e+04
                                  1.12327  5.964830e+04
                                  1.12372  6.002729e+04
                                  1.12418  6.041111e+04
                                  1.12463  6.080036e+04
                                  1.12508  6.119008e+04
                                  1.12554  6.158492e+04
                                  1.12599  6.198851e+04
                                  1.12644  6.240194e+04
                                  1.12690  6.282145e+04
                                  1.12735  6.323173e+04
                                  1.12781  6.364877e+04
                                  1.12826  6.406327e+04
                                  1.12871  6.447377e+04
                                  1.12917  6.489246e+04
                                  1.12962  6.532655e+04
                                  1.13007  6.576638e+04
                                  1.13053  6.620258e+04
                                  1.13098  6.663319e+04
                                  1.13143  6.706809e+04
                                  1.13189  6.750063e+04
                                  1.13234  6.793846e+04
                                  1.13279  6.837625e+04
                                  1.13325  6.881346e+04
                                  1.13370  6.925640e+04
                                  1.13416  6.970816e+04
                                  1.13461  7.016530e+04
                                  1.13506  7.062298e+04
                                  1.13552  7.108088e+04
                                  1.13597  7.154481e+04
                                  1.13642  7.201373e+04
                                  1.13688  7.248935e+04
                                  1.13733  7.297045e+04
                                  1.13778  7.345668e+04
                                  1.13824  7.394990e+04
                                  1.13869  7.444351e+04
                                  1.13914  7.494368e+04
                                  1.13960  7.544302e+04
                                  1.14005  7.593817e+04
                                  1.14051  7.644035e+04
                                  1.14096  7.694028e+04
                                  1.14141  7.744593e+04
                                  1.14187  7.795338e+04
                                  1.14232  7.845942e+04
                                  1.14277  7.897256e+04
                                  1.14323  7.949409e+04
                                  1.14368  8.002362e+04
                                  1.14413  8.055739e+04
                                  1.14459  8.109123e+04
                                  1.14504  8.163282e+04
                                  1.14549  8.216560e+04
                                  1.14595  8.270108e+04
                                  1.14640  8.324610e+04
                                  1.14686  8.380570e+04
                                  1.14731  8.437306e+04
                                  1.14776  8.493757e+04
                                  1.14822  8.550623e+04
                                  1.14867  8.607733e+04
                                  1.14912  8.663332e+04
                                  1.14958  8.719702e+04
                                  1.15003  8.782650e+04
                                  1.15048  8.849597e+04
                                  1.15094  8.917619e+04
                                  1.15139  8.986554e+04
                                  1.15184  9.056629e+04
                                  1.15230  9.127545e+04
                                  1.15275  9.199394e+04
                                  1.15321  9.272305e+04
                                  1.15366  9.341924e+04
                                  1.15411  9.412664e+04
                                  1.15457  9.483356e+04
                                  1.15502  9.553885e+04
                                  1.15547  9.625549e+04
                                  1.15593  9.698014e+04
                                  1.15638  9.771621e+04
                                  1.15683  9.846301e+04
                                  1.15729  9.921993e+04
                                  1.15774  9.998933e+04
                                  1.15819  1.007646e+05
                                  1.15865  1.015514e+05
                                  1.15910  1.023420e+05
                                  1.15956  1.031187e+05
                                  1.16001  1.039086e+05
                                  1.16046  1.047044e+05
                                  1.16092  1.055106e+05
                                  1.16137  1.063278e+05
                                  1.16182  1.071386e+05
                                  1.16228  1.079635e+05
                                  1.16273  1.087862e+05
                                  1.16318  1.096093e+05
                                  1.16364  1.104452e+05
                                  1.16409  1.112930e+05
                                  1.16454  1.121554e+05
                                  1.16500  1.130273e+05
                                  1.16545  1.139084e+05
                                  1.16591  1.148071e+05
                                  1.16636  1.156738e+05
                                  1.16681  1.165458e+05
                                  1.16727  1.174323e+05
                                  1.16772  1.183335e+05
                                  1.16817  1.192461e+05
                                  1.16863  1.201717e+05
                                  1.16908  1.211111e+05
                                  1.16953  1.220605e+05
                                  1.16999  1.229963e+05
                                  1.17044  1.239472e+05
                                  1.17089  1.248738e+05
                                  1.17135  1.257793e+05
                                  1.17180  1.266987e+05
                                  1.17226  1.276628e+05
                                  1.17271  1.286451e+05
                                  1.17316  1.296444e+05
                                  1.17362  1.306634e+05
                                  1.17407  1.317030e+05
                                  1.17452  1.327380e+05
                                  1.17498  1.337876e+05
                                  1.17543  1.348560e+05
                                  1.17588  1.359174e+05
                                  1.17634  1.369936e+05
                                  1.17679  1.380847e+05
                                  1.17724  1.391899e+05
                                  1.17770  1.403091e+05
                                  1.17815  1.413688e+05
                                  1.17861  1.424418e+05
                                  1.17906  1.435444e+05
                                  1.17951  1.446885e+05
                                  1.17997  1.458520e+05
                                  1.18042  1.469780e+05
                                  1.18087  1.481036e+05
                                  1.18133  1.492472e+05
                                  1.18178  1.504085e+05
                                  1.18223  1.515897e+05
                                  1.18269  1.527619e+05
                                  1.18314  1.539292e+05
                                  1.18359  1.551173e+05
                                  1.18405  1.563367e+05
                                  1.18450  1.575773e+05
                                  1.18496  1.587962e+05
                                  1.18541  1.599371e+05
                                  1.18586  1.610940e+05
                                  1.18632  1.623043e+05
                                  1.18677  1.635507e+05
                                  1.18722  1.648132e+05
                                  1.18768  1.660408e+05
                                  1.18813  1.672895e+05
                                  1.18858  1.685636e+05
                                  1.18904  1.698653e+05
                                  1.18949  1.711905e+05
                                  1.18994  1.725415e+05
                                  1.19040  1.739135e+05
                                  1.19085  1.752963e+05
                                  1.19131  1.766569e+05
                                  1.19176  1.780371e+05
                                  1.19221  1.794232e+05
                                  1.19267  1.808200e+05
                                  1.19312  1.822398e+05
                                  1.19357  1.836449e+05
                                  1.19403  1.850711e+05
                                  1.19448  1.864946e+05
                                  1.19493  1.878717e+05
                                  1.19539  1.892714e+05
                                  1.19584  1.906859e+05
                                  1.19629  1.921175e+05
                                  1.19675  1.935710e+05
                                  1.19720  1.950480e+05
                                  1.19766  1.965497e+05
                                  1.19811  1.980648e+05
                                  1.19856  1.995831e+05
                                  1.19902  2.011271e+05
                                  1.19947  2.026667e+05
                                  1.19992  2.042174e+05
                                  1.20038  2.058043e+05
                                  1.20083  2.076206e+05
                                  1.20128  2.094697e+05
                                  1.20174  2.113505e+05
                                  1.20219  2.132645e+05
                                  1.20264  2.152170e+05
                                  1.20310  2.170972e+05
                                  1.20355  2.189747e+05
                                  1.20401  2.208960e+05
                                  1.20446  2.229432e+05
                                  1.20491  2.250286e+05
                                  1.20537  2.270818e+05
                                  1.20582  2.290769e+05
                                  1.20627  2.311087e+05
                                  1.20673  2.331021e+05
                                  1.20718  2.351106e+05
                                  1.20763  2.371595e+05
                                  1.20809  2.392583e+05
                                  1.20854  2.413991e+05
                                  1.20899  2.435336e+05
                                  1.20945  2.456413e+05
                                  1.20990  2.477862e+05
                                  1.21036  2.500658e+05
                                  1.21081  2.524206e+05
                                  1.21126  2.547981e+05
                                  1.21172  2.569597e+05
                                  1.21217  2.591592e+05
                                  1.21262  2.613866e+05
                                  1.21308  2.636371e+05
                                  1.21353  2.659272e+05
                                  1.21398  2.683325e+05
                                  1.21444  2.708119e+05
                                  1.21489  2.733281e+05
                                  1.21534  2.756494e+05
                                  1.21580  2.780125e+05
                                  1.21625  2.804061e+05
                                  1.21671  2.828212e+05
                                  1.21716  2.852813e+05
                                  1.21761  2.876863e+05
                                  1.21807  2.900841e+05
                                  1.21852  2.925245e+05
                                  1.21897  2.950166e+05
                                  1.21943  2.975541e+05
                                  1.21988  3.000936e+05
                                  1.22033  3.025675e+05
                                  1.22079  3.050849e+05
                                  1.22124  3.077633e+05
                                  1.22169  3.105733e+05
                                  1.22215  3.134379e+05
                                  1.22260  3.159783e+05
                                  1.22306  3.185172e+05
                                  1.22351  3.210864e+05
                                  1.22396  3.236419e+05
                                  1.22442  3.262418e+05
                                  1.22487  3.289694e+05
                                  1.22532  3.318344e+05
                                  1.22578  3.347536e+05
                                  1.22623  3.374662e+05
                                  1.22668  3.401510e+05
                                  1.22714  3.428957e+05
                                  1.22759  3.458800e+05
                                  1.22804  3.489181e+05
                                  1.22850  3.518923e+05
                                  1.22895  3.547036e+05
                                  1.22941  3.575614e+05
                                  1.22986  3.604537e+05
                                  1.23031  3.633892e+05
                                  1.23077  3.663769e+05
                                  1.23122  3.694017e+05
                                  1.23167  3.724793e+05
                                  1.23213  3.755072e+05
                                  1.23258  3.781792e+05
                                  1.23303  3.808927e+05
                                  1.23349  3.837364e+05
                                  1.23394  3.867211e+05
                                  1.23439  3.897557e+05
                                  1.23485  3.928408e+05
                                  1.23530  3.959766e+05
                                  1.23576  3.991574e+05
                                  1.23621  4.021544e+05
                                  1.23666  4.051983e+05
                                  1.23712  4.082512e+05
                                  1.23757  4.112596e+05
                                  1.23802  4.143152e+05
                                  1.23848  4.172722e+05
                                  1.23893  4.201591e+05
                                  1.23938  4.230887e+05
                                  1.23984  4.263672e+05
                                  1.24029  4.297645e+05
                                  1.24074  4.331738e+05
                                  1.24120  4.361570e+05
                                  1.24165  4.391842e+05
                                  1.24211  4.422048e+05
                                  1.24256  4.451709e+05
                                  1.24301  4.481796e+05
                                  1.24347  4.512107e+05
                                  1.24392  4.542722e+05
                                  1.24437  4.573794e+05
                                  1.24483  4.605245e+05
                                  1.24528  4.637171e+05
                                  1.24573  4.669582e+05
                                  1.24619  4.702334e+05
                                  1.24664  4.735602e+05
                                  1.24709  4.768813e+05
                                  1.24755  4.801401e+05
                                  1.24800  4.834431e+05
                                  1.24846  4.864061e+05
                                  1.24891  4.891385e+05
                                  1.24936  4.919021e+05
                                  1.24982  4.954336e+05
                                  1.25027  4.991677e+05
                                  1.25072  5.029698e+05
                                  1.25118  5.069364e+05
                                  1.25163  5.109705e+05
                                  1.25208  5.149988e+05
                                  1.25254  5.189244e+05
                                  1.25299  5.229147e+05
                                  1.25344  5.269502e+05
                                  1.25390  5.310354e+05
                                  1.25435  5.351899e+05
                                  1.25481  5.393997e+05
                                  1.25526  5.436794e+05
                                  1.25571  5.480358e+05
                                  1.25617  5.524151e+05
                                  1.25662  5.568725e+05
                                  1.25707  5.612227e+05
                                  1.25753  5.649841e+05
                                  1.25798  5.687985e+05
                                  1.25843  5.728476e+05
                                  1.25889  5.771852e+05
                                  1.25934  5.815908e+05
                                  1.25979  5.856013e+05
                                  1.26025  5.894346e+05
                                  1.26070  5.933242e+05
                                  1.26116  5.972453e+05
                                  1.26161  6.012181e+05
                                  1.26206  6.052475e+05
                                  1.26252  6.093331e+05
                                  1.26297  6.134737e+05
                                  1.26342  6.176652e+05
                                  1.26388  6.219035e+05
                                  1.26433  6.262030e+05
                                  1.26478  6.301216e+05
                                  1.26524  6.336657e+05
                                  1.26569  6.372540e+05
                                  1.26614  6.406008e+05
                                  1.26660  6.438731e+05
                                  1.26705  6.471832e+05
                                  1.26751  6.513132e+05
                                  1.26796  6.555714e+05
                                  1.26841  6.597686e+05
                                  1.26887  6.631058e+05
                                  1.26932  6.664819e+05
                                  1.26977  6.698811e+05
                                  1.27023  6.732841e+05
                                  1.27068  6.767269e+05
                                  1.27113  6.801958e+05
                                  1.27159  6.836936e+05
                                  1.27204  6.872355e+05
                                  1.27249  6.904205e+05
                                  1.27295  6.934700e+05
                                  1.27340  6.965548e+05
                                  1.27386  6.995509e+05
                                  1.27431  7.025683e+05
                                  1.27476  7.055752e+05
                                  1.27522  7.080115e+05
                                  1.27567  7.104780e+05
                                  1.27612  7.129744e+05
                                  1.27658  7.155045e+05
                                  1.27703  7.180754e+05
                                  1.27748  7.208725e+05
                                  1.27794  7.239744e+05
                                  1.27839  7.271552e+05
                                  1.27884  7.297439e+05
                                  1.27930  7.319832e+05
                                  1.27975  7.343008e+05
                                  1.28021  7.365004e+05
                                  1.28066  7.387507e+05
                                  1.28111  7.411182e+05
                                  1.28157  7.428448e+05
                                  1.28202  7.445763e+05
                                  1.28247  7.463180e+05
                                  1.28293  7.478622e+05
                                  1.28338  7.493660e+05
                                  1.28383  7.506973e+05
                                  1.28429  7.516769e+05
                                  1.28474  7.526370e+05
                                  1.28519  7.540535e+05
                                  1.28565  7.560132e+05
                                  1.28610  7.579451e+05
                                  1.28656  7.595296e+05
                                  1.28701  7.609029e+05
                                  1.28746  7.622695e+05
                                  1.28792  7.634995e+05
                                  1.28837  7.646891e+05
                                  1.28882  7.658773e+05
                                  1.28928  7.664794e+05
                                  1.28973  7.670352e+05
                                  1.29018  7.675915e+05
                                  1.29064  7.681524e+05
                                  1.29109  7.687135e+05
                                  1.29154  7.692755e+05
                                  1.29200  7.698401e+05
                                  1.29245  7.704050e+05
                                  1.29291  7.704250e+05
                                  1.29336  7.695245e+05
                                  1.29381  7.686257e+05
                                  1.29427  7.684848e+05
                                  1.29472  7.690586e+05
                                  1.29517  7.696327e+05
                                  1.29563  7.696216e+05
                                  1.29608  7.693003e+05
                                  1.29653  7.689782e+05
                                  1.29699  7.689415e+05
                                  1.29744  7.689795e+05
                                  1.29789  7.690167e+05
                                  1.29835  7.679148e+05
                                  1.29880  7.667230e+05
                                  1.29926  7.655729e+05
                                  1.29971  7.650810e+05
                                  1.30016  7.645883e+05
                                  1.30062  7.642940e+05
                                  1.30107  7.648771e+05
                                  1.30152  7.654605e+05
                                  1.30198  7.660395e+05
                                  1.30243  7.666081e+05
                                  1.30288  7.671771e+05
                                  1.30334  7.674827e+05
                                  1.30379  7.674423e+05
                                  1.30424  7.674010e+05
                                  1.30470  7.672704e+05
                                  1.30515  7.670674e+05
                                  1.30561  7.668631e+05
                                  1.30606  7.671113e+05
                                  1.30651  7.675830e+05
                                  1.30697  7.680546e+05
                                  1.30742  7.672165e+05
                                  1.30787  7.660178e+05
                                  1.30833  7.648209e+05
                                  1.30878  7.644445e+05
                                  1.30923  7.641633e+05
                                  1.30969  7.638794e+05
                                  1.31014  7.631370e+05
                                  1.31059  7.623941e+05
                                  1.31105  7.616046e+05
                                  1.31150  7.604351e+05
                                  1.31196  7.592665e+05
                                  1.31241  7.581047e+05
                                  1.31286  7.569660e+05
                                  1.31332  7.558284e+05
                                  1.31377  7.546943e+05
                                  1.31422  7.535664e+05
                                  1.31468  7.524391e+05
                                  1.31513  7.507947e+05
                                  1.31558  7.484014e+05
                                  1.31604  7.460169e+05
                                  1.31649  7.442797e+05
                                  1.31694  7.431835e+05
                                  1.31740  7.420885e+05
                                  1.31785  7.403412e+05
                                  1.31831  7.381519e+05
                                  1.31876  7.359756e+05
                                  1.31921  7.343175e+05
                                  1.31967  7.329031e+05
                                  1.32012  7.314918e+05
                                  1.32057  7.291698e+05
                                  1.32103  7.265789e+05
                                  1.32148  7.240030e+05
                                  1.32193  7.223232e+05
                                  1.32239  7.208084e+05
                                  1.32284  7.192971e+05
                                  1.32329  7.170279e+05
                                  1.32375  7.147085e+05
                                  1.32420  7.124010e+05
                                  1.32466  7.099649e+05
                                  1.32511  7.075416e+05
                                  1.32556  7.051326e+05
                                  1.32602  7.027572e+05
                                  1.32647  7.003946e+05
                                  1.32692  6.980468e+05
                                  1.32738  6.957242e+05
                                  1.32783  6.934133e+05
                                  1.32828  6.911198e+05
                                  1.32874  6.888599e+05
                                  1.32919  6.866117e+05
                                  1.32964  6.841383e+05
                                  1.33010  6.810633e+05
                                  1.33055  6.780111e+05
                                  1.33101  6.752333e+05
                                  1.33146  6.729655e+05
                                  1.33191  6.707099e+05
                                  1.33237  6.683224e+05
                                  1.33282  6.657312e+05
                                  1.33327  6.631565e+05
                                  1.33373  6.606273e+05
                                  1.33418  6.581489e+05
                                  1.33463  6.556858e+05
                                  1.33509  6.530060e+05
                                  1.33554  6.501180e+05
                                  1.33599  6.472509e+05
                                  1.33645  6.446471e+05
                                  1.33690  6.422546e+05
                                  1.33736  6.398765e+05
                                  1.33781  6.371069e+05
                                  1.33826  6.340901e+05
                                  1.33872  6.310980e+05
                                  1.33917  6.281463e+05
                                  1.33962  6.252267e+05
                                  1.34008  6.223294e+05
                                  1.34053  6.194739e+05
                                  1.34098  6.166494e+05
                                  1.34144  6.138469e+05
                                  1.34189  6.116036e+05
                                  1.34234  6.095787e+05
                                  1.34280  6.075643e+05
                                  1.34325  6.050689e+05
                                  1.34371  6.024346e+05
                                  1.34416  5.998197e+05
                                  1.34461  5.972057e+05
                                  1.34507  5.946054e+05
                                  1.34552  5.920235e+05
                                  1.34597  5.894802e+05
                                  1.34643  5.869589e+05
                                  1.34688  5.844551e+05
                                  1.34733  5.814017e+05
                                  1.34779  5.782732e+05
                                  1.34824  5.751750e+05
                                  1.34869  5.726968e+05
                                  1.34915  5.703257e+05
                                  1.34960  5.679701e+05
                                  1.35006  5.656620e+05
                                  1.35051  5.633727e+05
                                  1.35096  5.610979e+05
                                  1.35142  5.594448e+05
                                  1.35187  5.578638e+05
                                  1.35232  5.562903e+05
                                  1.35278  5.537210e+05
                                  1.35323  5.510832e+05
                                  1.35368  5.484669e+05
                                  1.35414  5.461650e+05
                                  1.35459  5.439008e+05
                                  1.35504  5.416514e+05
                                  1.35550  5.395871e+05
                                  1.35595  5.375474e+05
                                  1.35641  5.355206e+05
                                  1.35686  5.335066e+05
                                  1.35731  5.315052e+05
                                  1.35777  5.295165e+05
                                  1.35822  5.274854e+05
                                  1.35867  5.254637e+05
                                  1.35913  5.234545e+05
                                  1.35958  5.211230e+05
                                  1.36003  5.187894e+05
                                  1.36049  5.164739e+05
                                  1.36094  5.146191e+05
                                  1.36139  5.128034e+05
                                  1.36185  5.109978e+05
                                  1.36230  5.091123e+05
                                  1.36276  5.072318e+05
                                  1.36321  5.053628e+05
                                  1.36366  5.032714e+05
                                  1.36412  5.011738e+05
                                  1.36457  4.990900e+05
                                  1.36502  4.969544e+05
                                  1.36548  4.948279e+05
                                  1.36593  4.927169e+05
                                  1.36638  4.908896e+05
                                  1.36684  4.891056e+05
                                  1.36729  4.873322e+05
                                  1.36774  4.854626e+05
                                  1.36820  4.835885e+05
                                  1.36865  4.817255e+05
                                  1.36911  4.797132e+05
                                  1.36956  4.776851e+05
                                  1.37001  4.756694e+05
                                  1.37047  4.735829e+05
                                  1.37092  4.714958e+05
                                  1.37137  4.694256e+05
                                  1.37183  4.673712e+05
                                  1.37228  4.653331e+05
                                  1.37273  4.633114e+05
                                  1.37319  4.613251e+05
                                  1.37364  4.593576e+05
                                  1.37409  4.574028e+05
                                  1.37455  4.556475e+05
                                  1.37500  4.539709e+05
                                  1.37546  4.523038e+05
                                  1.37591  4.506018e+05
                                  1.37636  4.488917e+05
                                  1.37682  4.471934e+05
                                  1.37727  4.453282e+05
                                  1.37772  4.433833e+05
                                  1.37818  4.414535e+05
                                  1.37863  4.394776e+05
                                  1.37908  4.374789e+05
                                  1.37954  4.354963e+05
                                  1.37999  4.338671e+05
                                  1.38044  4.325071e+05
                                  1.38090  4.311537e+05
                                  1.38135  4.295393e+05
                                  1.38181  4.276841e+05
                                  1.38226  4.258420e+05
                                  1.38271  4.240214e+05
                                  1.38317  4.222238e+05
                                  1.38362  4.204390e+05
                                  1.38407  4.186998e+05
                                  1.38453  4.170205e+05
                                  1.38498  4.153529e+05
                                  1.38543  4.136523e+05
                                  1.38589  4.118807e+05
                                  1.38634  4.101218e+05
                                  1.38679  4.084377e+05
                                  1.38725  4.069193e+05
                                  1.38770  4.054101e+05
                                  1.38816  4.038548e+05
                                  1.38861  4.021164e+05
                                  1.38906  4.003907e+05
                                  1.38952  3.987234e+05
                                  1.38997  3.973196e+05
                                  1.39042  3.959238e+05
                                  1.39088  3.945117e+05
                                  1.39133  3.928414e+05
                                  1.39178  3.911824e+05
                                  1.39224  3.895357e+05
                                  1.39269  3.880276e+05
                                  1.39314  3.865285e+05
                                  1.39360  3.850385e+05
                                  1.39405  3.833754e+05
                                  1.39451  3.817111e+05
                                  1.39496  3.800589e+05
                                  1.39541  5.244250e+05
